Folder: OWC_material/VSM data (part 2)

File: K1Sresistivity.txt
DEPTH	CALI	CORE_POR	DT	GR	LLD	LLS	MSFL	NPHI	RHOB	CORE_KH	CORE_KV	MD_m	RFT	TVDSS	UTME	UTMN
1219.2	-999.25	-999.25	-999.25	-999.25	-999.25	-999.25	-999.25	-999.25	-999.25	-999.25	-999.25	1219.21	-999.25	1208.53	400940	87050.7
1226.5	-999.25	-999.25	-999.25	-999.25	-999.25	-999.25	-999.25	-999.25	-999.25	-999.25	-999.25	1226.51	-999.25	1215.81	400941	87050.9
1233.8	-999.25	-999.25	-999.25	-999.25	-999.25	-999.25	-999.25	-999.25	-999.25	-999.25	-999.25	1233.81	-999.25	1223.11	400941	87050.9
1241.1	-999.25	-999.25	-999.25	-999.25	-999.25	-999.25	-999.25	-999.25	-999.25	-999.25	-999.25	1241.12	-999.25	1230.42	400941	87050.9
1248.4	-999.25	-999.25	-999.25	-999.25	-999.25	-999.25	-999.25	-999.25	-999.25	-999.25	-999.25	1248.42	-999.25	1237.72	400941	87050.9
1255.7	-999.25	-999.25	-999.25	-999.25	-999.25	-999.25	-999.25	-999.25	-999.25	-999.25	-999.25	1255.72	-999.25	1245.02	400941	87050.3
1263	-999.25	-999.25	-999.25	-999.25	-999.25	-999.25	-999.25	-999.25	-999.25	-999.25	-999.25	1263.02	-999.25	1252.32	400941	87050.3
1270.3	-999.25	-999.25	-999.25	-999.25	-999.25	-999.25	-999.25	-999.25	-999.25	-999.25	-999.25	1270.32	-999.25	1259.62	400941	87050.3
1277.6	-999.25	-999.25	-999.25	-999.25	-999.25	-999.25	-999.25	-999.25	-999.25	-999.25	-999.25	1277.62	-999.25	1266.92	400941	87049.7
1284.9	-999.25	-999.25	-999.25	-999.25	-999.25	-999.25	-999.25	-999.25	-999.25	-999.25	-999.25	1284.93	-999.25	1274.23	400941	87049.7
1292.2	-999.25	-999.25	-999.25	-999.25	-999.25	-999.25	-999.25	-999.25	-999.25	-999.25	-999.25	1292.23	-999.25	1281.53	400941	87049.7
1299.5	-999.25	-999.25	-999.25	-999.25	-999.25	-999.25	-999.25	-999.25	-999.25	-999.25	-999.25	1299.53	-999.25	1288.83	400941	87049.7
1306.8	-999.25	-999.25	-999.25	-999.25	-999.25	-999.25	-999.25	-999.25	-999.25	-999.25	-999.25	1306.83	-999.25	1296.13	400942	87049.2
1314.1	-999.25	-999.25	-999.25	-999.25	-999.25	-999.25	-999.25	-999.25	-999.25	-999.25	-999.25	1314.13	-999.25	1303.43	400942	87049.2
1321.4	-999.25	-999.25	-999.25	-999.25	-999.25	-999.25	-999.25	-999.25	-999.25	-999.25	-999.25	1321.44	-999.25	1310.74	400942	87049.2
1328.7	-999.25	-999.25	-999.25	-999.25	-999.25	-999.25	-999.25	-999.25	-999.25	-999.25	-999.25	1328.74	-999.25	1318.04	400942	87048.8
1336	-999.25	-999.25	-999.25	-999.25	-999.25	-999.25	-999.25	-999.25	-999.25	-999.25	-999.25	1336.04	-999.25	1325.34	400942	87048.8
1343.3	-999.25	-999.25	-999.25	-999.25	-999.25	-999.25	-999.25	-999.25	-999.25	-999.25	-999.25	1343.34	-999.25	1332.64	400942	87048.8
1350.6	-999.25	-999.25	-999.25	-999.25	-999.25	-999.25	-999.25	-999.25	-999.25	-999.25	-999.25	1350.64	-999.25	1339.94	400942	87048.4
1357.9	-999.25	-999.25	-999.25	-999.25	-999.25	-999.25	-999.25	-999.25	-999.25	-999.25	-999.25	1357.94	-999.25	1347.24	400942	87048.4
1365.2	-999.25	-999.25	-999.25	-999.25	-999.25	-999.25	-999.25	-999.25	-999.25	-999.25	-999.25	1365.25	-999.25	1354.55	400942	87048.4
1372.5	-999.25	-999.25	-999.25	-999.25	-999.25	-999.25	-999.25	-999.25	-999.25	-999.25	-999.25	1372.55	-999.25	1361.85	400942	87048.4
1379.8	-999.25	-999.25	-999.25	-999.25	-999.25	-999.25	-999.25	-999.25	-999.25	-999.25	-999.25	1379.85	-999.25	1369.15	400942.5	87048.1
1387.1	-999.25	-999.25	-999.25	-999.25	-999.25	-999.25	-999.25	-999.25	-999.25	-999.25	-999.25	1387.15	-999.25	1376.45	400942.5	87048.1
1394.4	-999.25	-999.25	-999.25	-999.25	-999.25	-999.25	-999.25	-999.25	-999.25	-999.25	-999.25	1394.46	-999.25	1383.76	400942.5	87048.1
1401.7	-999.25	-999.25	-999.25	-999.25	-999.25	-999.25	-999.25	-999.25	-999.25	-999.25	-999.25	1401.75	-999.25	1391.05	400943	87047.5
1409	-999.25	-999.25	-999.25	-999.25	-999.25	-999.25	-999.25	-999.25	-999.25	-999.25	-999.25	1409.06	-999.25	1398.36	400943	87047.5
1416.3	-999.25	-999.25	-999.25	-999.25	-999.25	-999.25	-999.25	-999.25	-999.25	-999.25	-999.25	1416.36	-999.25	1405.66	400943	87047.5
1423.6	-999.25	-999.25	-999.25	-999.25	-999.25	-999.25	-999.25	-999.25	-999.25	-999.25	-999.25	1423.66	-999.25	1412.96	400943	87047.5
1430.9	-999.25	-999.25	-999.25	-999.25	0.812702	0.149	0.305412	-999.25	-999.25	-999.25	-999.25	1430.96	-999.25	1420.26	400943	87046.6
1438.2	-999.25	-999.25	-999.25	-999.25	0.801638	0.149984	0.306237	-999.25	-999.25	-999.25	-999.25	1438.27	-999.25	1427.57	400943	87046.2
1445.5	-999.25	-999.25	56.4138	68.0342	0.850245	0.148908	0.316816	-999.25	-999.25	-999.25	-999.25	1445.57	-999.25	1434.87	400943	87045.8
1452.8	8.7109	-999.25	56.6135	68.709	0.857144	0.150617	0.307195	0.4428	2.37162	-999.25	-999.25	1452.87	-999.25	1442.17	400943	87046
1460.1	8.72335	-999.25	58.0847	72.158	0.788371	0.152346	0.368021	0.42975	2.89837	-999.25	-999.25	1460.17	-999.25	1449.47	400943	87045.6
1467.4	8.70932	-999.25	56.1969	70.5729	0.806162	0.149609	0.34431	0.371124	2.73571	-999.25	-999.25	1467.47	-999.25	1456.77	400943	87045.2
1474.7	8.6879	-999.25	76.4721	71.3813	0.842497	0.149509	0.31618	0.351489	2.37808	-999.25	-999.25	1474.78	-999.25	1464.08	400943	87044.8
1482	8.71429	-999.25	76.9873	82.4013	0.658002	0.149409	0.337562	0.366374	2.71658	-999.25	-999.25	1482.07	-999.25	1471.36	400944	87045
1489.3	12.2065	-999.25	76.4333	125.381	4.5519	4.30138	4.63052	0.289247	2.57428	-999.25	-999.25	1489.37	-999.25	1478.66	400944	87044.7
1496.6	9.55667	-999.25	79.0374	142.398	3.64614	3.32568	4.49849	0.255708	2.54887	-999.25	-999.25	1496.66	-999.25	1485.95	400944	87044.3
1503.9	9.29005	-999.25	84.3752	158.496	2.86591	2.47604	3.36917	0.281155	2.51752	-999.25	-999.25	1503.96	-999.25	1493.24	400944	87043.9
1511.2	9.40527	-999.25	82.3315	158.93	2.9847	2.6294	3.82307	0.283727	2.55028	-999.25	-999.25	1511.26	-999.25	1500.53	400944	87043.5
1518.5	9.299	-999.25	80.8887	157.552	3.11959	2.85432	3.51803	0.251346	2.57316	-999.25	-999.25	1518.56	-999.25	1507.82	400944	87043.2
1525.8	9.67831	-999.25	82.7085	149.141	2.82298	2.34783	3.6286	0.262969	2.53916	-999.25	-999.25	1525.85	-999.25	1515.11	400944	87042.8
1533.1	9.79925	-999.25	76.48	136.556	3.00632	2.47274	3.22713	0.256249	2.54487	-999.25	-999.25	1533.15	-999.25	1522.4	400944	87042.4
1540.4	10.0017	-999.25	79.2562	147.188	2.68864	2.34696	5.20749	0.286965	2.56758	-999.25	-999.25	1540.45	-999.25	1529.7	400944	87042
1547.7	10.0197	-999.25	77.6128	149.569	3.10986	2.74247	3.22211	0.224744	2.55607	-999.25	-999.25	1547.75	-999.25	1536.99	400944	87041.7
1555	10.656	-999.25	77.5039	139.958	3.07719	2.96298	3.7658	0.216072	2.55731	-999.25	-999.25	1555.04	-999.25	1544.28	400944	87041.3
1562.3	10.2267	-999.25	78.0264	151.507	2.75874	2.50789	3.75753	0.238554	2.536	-999.25	-999.25	1562.34	-999.25	1551.57	400944	87040.9
1569.6	8.96586	-999.25	71.0067	131.022	6.12942	6.7951	8.36447	0.145497	2.4739	-999.25	-999.25	1569.64	-999.25	1558.86	400944	87040.5
1576.9	8.5171	-999.25	84.6395	176.137	4.03889	3.8106	3.08956	0.252319	2.37286	-999.25	-999.25	1576.93	-999.25	1566.15	400944	87040.2
1584.2	8.4688	-999.25	80.9908	163.604	4.23851	3.21926	4.019	0.208601	2.31588	-999.25	-999.25	1584.23	-999.25	1573.44	400944	87039.8
1591.5	8.5463	-999.25	73.3042	139.146	4.32465	3.4434	4.18643	0.169991	2.38835	-999.25	-999.25	1591.49	-999.25	1580.74	400944	87039.4
1598.8	8.52316	-999.25	82.6134	146.145	2.92324	2.47341	2.86991	0.223146	2.36632	-999.25	-999.25	1598.83	-999.25	1588.03	400944	87039
1606.1	8.47895	-999.25	74.3723	109.478	8.62042	7.06236	5.14448	0.163063	2.4038	-999.25	-999.25	1606.12	-999.25	1595.32	400944	87038.7
1613.4	8.47403	0.180646	87.8064	111.293	5.66289	4.99545	1.38046	0.223472	2.25094	192.606	-999.25	1613.4	-999.25	1602.61	400944	87038.3
1620.7	8.48018	-999.25	77.8855	101.954	3.64378	3.0601	2.14505	0.167768	2.34313	-999.25	-999.25	1620.73	-999.25	1609.9	400944	87037.9
1628	8.49057	-999.25	82.6986	135.101	1.50463	1.44239	2.18608	0.202423	2.34228	-999.25	-999.25	1628.04	-999.25	1617.2	400945	87041
1635.3	8.47451	-999.25	84.3848	138.434	0.585654	0.605039	1.00738	0.238124	2.25842	-999.25	-999.25	1635.33	-999.25	1624.59	400945	87040.6
1642.6	8.88752	0.133559	72.3185	160.422	2.28348	2.51505	4.37559	0.174986	2.53358	6.51661	-999.25	1642.55	-999.25	1631.98	400945	87040.2
1649.9	8.49203	-999.25	80.3668	185.38	1.07014	1.05789	1.87261	0.232714	2.38328	-999.25	-999.25	1650.15	-999.25	1639.37	400945	87039.8
1657.2	8.49232	-999.25	79.5396	81.5731	0.770202	0.798091	1.39712	0.208531	2.37754	-999.25	-999.25	1657.26	-999.25	1646.76	400945	87039.5
1664.5	8.52168	-999.25	77.2726	100.167	0.82523	0.848053	1.51947	0.181655	2.32954	-999.25	-999.25	1664.51	-999.25	1654.15	400945	87039.1
1671.8	8.69985	-999.25	66.9623	104.545	2.19061	2.46558	4.6186	0.144332	2.42397	-999.25	-999.25	1672.38	-999.25	1661.54	400945	87038.7
1679.1	8.63297	-999.25	79.8081	129.699	0.639865	0.698637	1.37027	0.23924	2.3035	-999.25	-999.25	1679.77	-999.25	1668.93	400945	87038.3
1686.4	9.71538	-999.25	77.5295	93.8199	0.697424	0.739614	0.971886	0.216095	2.30247	-999.25	-999.25	1687.17	-999.25	1676.32	400945	87038
1693.7	8.75233	-999.25	74.0106	145.69	1.48095	1.51708	3.26136	0.150597	2.3971	-999.25	-999.25	1694.57	-999.25	1683.71	400945	87037.6
1701	8.73106	-999.25	73.1929	102.519	1.02913	1.18682	1.86688	0.168123	2.38613	-999.25	-999.25	1701.97	-999.25	1691.1	400945	87037.2
1708.3	8.91749	-999.25	72.9065	106.913	1.93996	2.001	4.16695	0.161497	2.47612	-999.25	-999.25	1709.36	-999.25	1698.49	400945	87036.8
1715.6	8.72983	-999.25	77.8199	152.241	1.7987	1.93763	4.24334	0.21057	2.53721	-999.25	-999.25	1716.76	-999.25	1705.89	400945	87036.5
1722.9	8.60402	-999.25	70.795	93.3989	1.85676	2.01185	2.7256	0.131452	2.52426	-999.25	-999.25	1724.16	-999.25	1713.28	400945	87036.1
1730.2	8.71888	-999.25	78.1956	104.522	2.96733	3.0792	4.50812	0.24536	2.58707	-999.25	-999.25	1731.55	-999.25	1720.67	400945	87035.7
1737.5	8.45495	-999.25	79.9244	115.715	3.34992	3.39133	4.17067	0.251556	2.61603	-999.25	-999.25	1738.95	-999.25	1728.06	400945	87035.3
1744.8	8.74211	-999.25	74.8086	112.464	4.76439	4.74232	5.68542	0.260575	2.61745	-999.25	-999.25	1746.35	-999.25	1735.45	400945	87035
1752.1	8.74422	-999.25	77.1874	113.25	3.82316	3.89543	3.518	0.2412	2.65576	-999.25	-999.25	1753.74	-999.25	1742.84	400945	87034.6
1758.2	-999.25	-999.25	-999.25	-999.25	-999.25	-999.25	-999.25	-999.25	-999.25	-999.25	-999.25	1759.92	-999.25	1749.02	400945	87034.3