Folder: OWC_material/VSM data

Note: VSM data/Creech_1.txt
Specimen_ID	Depth	Ms	Mrs	Mass_mg	Mass_kg	Brh	Bcr	Bc	Ms_Am^2/kg	Mrs_Am^2/kg	Shape	Mrs/Ms	Bcr/Bc	Brh/Bcr	Staining	Xhf	Xhf_m3/kg
SSK115289	1057.73	5.45E-06	7.46E-07	5395	0.005395	48.12	42.93	12.92	9.57E-04	1.32E-04	0.71	1.38E-01	3.322755418	1.120894479		3.42E-10	7.11E-08
SSK115315	1059.73	4.18E-06	7.69E-07	5525	0.005525	52.16	46.95	14.46	7.05E-04	1.34E-04	0.96	1.89E-01	3.246887967	1.110969116		2.07E-10	4.50E-08
SSK115316	1060.56	6.81E-06	1.19E-06	7265	0.007265	43.38	45.94	15.34	8.98E-04	1.60E-04	0.79	1.78E-01	2.994784876	0.944275141		4.49E-10	6.75E-08
SSK115317	1061.45	5.18E-06	8.95E-07	6095	0.006095	48.86	44.16	13.36	8.03E-04	1.42E-04	0.85	1.77E-01	3.305389222	1.106431159		2.53E-10	4.83E-08
SSK115318	1062.26	9.88E-06	1.36E-06	7095	0.007095	51.95	43.67	12.22	1.35E-03	1.87E-04	0.81	1.39E-01	3.573649755	1.189603847		3.60E-10	5.66E-08
SSK115319	1063.35	5.38E-06	7.97E-07	6295	0.006295	468.38	42.11	11.39	8.09E-04	1.22E-04	1.15	1.50E-01	3.697102722	11.12277369		2.54E-10	4.70E-08
SSK115320	1064.5	5.68E-06	8.58E-07	6865	0.006865	43.96	44.73	13.77	7.86E-04	1.20E-04	0.77	1.53E-01	3.248366013	0.982785603		3.73E-10	6.04E-08
SSK115321	1065.1	5.69E-06	8.67E-07	7135	0.007135	51.96	44.76	13.06	7.57E-04	1.17E-04	0.96	1.55E-01	3.427258806	1.160857909		2.93E-10	4.69E-08
SSK115334	1065.49	8.85E-06	1.02E-06	6755	0.006755	48.83	46.28	12.73	1.27E-03	1.46E-04	0.57	1.15E-01	3.635506677	1.055099395		7.14E-10	1.12E-07
SSK115322	1066.25	7.67E-06	8.87E-07	8505	0.008505	46.42	45.92	13	8.68E-04	1.01E-04	0.43	1.16E-01	3.532307692	1.010888502		4.55E-10	5.84E-08
SSK115323	1067.7	5.88E-06	9.11E-07	5930	0.00593	44.63	43.26	14.07	9.62E-04	1.50E-04	-0.66	1.56E-01	3.074626866	1.031668978		2.86E-10	5.54E-08
SSK115324	1068.67	3.39E-06	7.13E-07	5400	0.0054	48.3	45.67	15.83	5.96E-04	1.28E-04	-0.64	2.14E-01	2.885028427	1.057587037		1.87E-10	4.25E-08
ssk115_32_new	1069.95	0.0000121	0.00000144	6285	0.006285	47.9	32.35	9.1	1.88E-03	2.24E-04	-0.098	1.19E-01	3.554945055	1.480680062		2.24E-10	4.23E-08
SSK115_326	1070.5	1.18E-06	1.74E-07	7210	0.00721	42.85	40.45	11.16	1.40E-04	2.09E-05	-0.47	1.50E-01	3.624551971	1.059332509		4.23E-11	1.17E-08
SSK115_327	1071.65	4.08E-06	7.12E-07	4730	0.00473	49.96	42.13	12.2	8.26E-04	1.46E-04	-0.33	1.76E-01	3.453278689	1.185853311		2.12E-10	5.38E-08
SSK115_328	1072.52	1.03E-06	1.71E-07	6650	0.00665	53.78	43.73	13.23	1.29E-04	2.22E-05	-0.66	1.73E-01	3.305366591	1.229819346		5.35E-11	1.44E-08
SSK115_329	1073.26	3.95E-06	6.28E-07	5410	0.00541	42.32	42.91	11.79	6.98E-04	1.12E-04	-0.52	1.60E-01	3.639525021	0.986250291		1.79E-10	4.09E-08
SSK115_330	1074.6	4.84E-06	7.24E-07	6980	0.00698	50.49	41.39	12.28	6.69E-04	1.00E-04	-0.73	1.50E-01	3.370521173	1.21985987		2.45E-10	4.12E-08
SSK115331	1075.7	6.00E-06	7.92E-07	7335	0.007335	48.71	40.63	11.81	7.79E-04	1.04E-04	0.79	1.33E-01	3.440304826	1.198867832		3.45E-10	5.27E-08
SSK115332	1076.5	5.00E-06	7.45E-07	6775	0.006775	43.65	45.21	12.34	6.96E-04	1.05E-04	0.84	1.51E-01	3.6636953	0.96549436		2.40E-10	4.16E-08

Note: VSM data/D2B.txt
Specimen_ID	Depth_m	Ms_(Am2/Kg)	Mrs_(Am2/Kg)	Mrs/Ms	Bc_[mT]	Bcr/Bc	Xhf_(m3/kg minus pot)
SSK141247	920.11	6.69E-04	9.26E-05	1.38E-01	12.3	3.743089431	4.02E-08
SSK141246	920.77	7.00E-04	1.08E-04	1.54E-01	13.1	3.277862595	3.57E-08
SSK141245	921.05	5.67E-04	8.27E-05	1.46E-01	9.6	3.764583333	3.94E-08
ssk115_380	921.45	1.26E-03	1.62E-04	1.28E-01	8.5	3.521176471	3.65E-08
SSK141244	921.8	5.73E-04	7.06E-05	1.23E-01	11.4	3.071929825	3.13E-08
SSK141243	923.17	8.06E-04	9.84E-05	1.22E-01	8.1	3.430864198	3.33E-08
ssk115_381	923.45	4.96E-04	8.71E-05	1.76E-01	10.3	3.414563107	2.94E-08
SSK115362	924.47	7.60E-04	9.97E-05	1.31E-01	11.1	3.130630631	3.84E-08
SSK141242	924.86	7.40E-04	9.80E-05	1.32E-01	10.1	3.452475248	3.55E-08
SSK115363	925.35	8.47E-04	1.30E-04	1.53E-01	10.5	3.428571429	3.62E-08
ssk115_364	926.22	9.27E-04	1.25E-04	1.34E-01	9.9	3.690909091	4.44E-08
ssk115_365	927.55	7.31E-04	1.18E-04	1.61E-01	10.2	3.53627451	3.73E-08
ssk115_366	928.75	6.56E-04	1.02E-04	1.56E-01	10.1	3.59009901	3.07E-08
ssk115_367	929.5	1.34E-03	1.19E-04	8.91E-02	9.4	3.653191489	4.23E-08
ssk115_368	930.15	9.97E-04	1.40E-04	1.40E-01	9.7	3.540206186	4.04E-08
ssk115_369	931.18	7.50E-04	1.01E-04	1.34E-01	9.5	3.64	3.55E-08
ssk115_370	932.3	8.58E-04	1.26E-04	1.46E-01	9	3.546666667	2.93E-08
ssk115_371	934.01	5.59E-04	8.52E-05	1.52E-01	10	3.611	3.00E-08
ssk115_372	936.35	7.06E-04	1.18E-04	1.67E-01	10.6	3.301886792	3.70E-08
ssk115_373	936.95	5.62E-04	8.90E-05	1.58E-01	9.9	3.58989899	3.41E-08
ssk115_374	938.75	7.76E-04	1.65E-04	2.12E-01	14.6	3.132876712	4.17E-08
ssk115_375	939.7	9.42E-04	1.51E-04	1.60E-01	11.6	3.468965517	4.66E-08
ssk115_376	940.2	7.43E-04	1.19E-04	1.60E-01	13	3.474615385	3.38E-08
ssk115_377	942.55	8.84E-04	1.54E-04	1.74E-01	12	3.600833333	3.99E-08
SSK141241	943.05	7.63E-04	1.56E-04	2.05E-01	14.3	3.434965035	4.35E-08
ssk115_378	943.55	1.39E-03	2.35E-04	1.69E-01	9.8	3.273469388	4.35E-08
SSK141240_2	943.75	9.84E-04	1.47E-04	1.50E-01	12.2	3.607377049	4.91E-08
ssk115_379	945.57	1.17E-03	2.15E-04	1.83E-01	13.4	3.199253731	6.22E-08
SSK141239	945.8	1.31E-03	1.99E-04	1.52E-01	12.7	3.347244094	4.94E-08
SSK141238	946.3	9.38E-04	1.16E-04	1.24E-01	10.5	3.665714286	4.68E-08

Note: VSM data/F2B.txt
Sample	Depth	Bcr	Bc_mT	Brh_mT	Bih_mT	Ms_Am^2	Mrs_Am^2	Xhf_m^3	Shape	mass_kg	Ms_Am2/Kg	Mrs_Am2/Kg	Xhf_m3/kg	Mrs/Ms	Bcr/Bc
SSK141284	956.7672	34.2	11.2	26.6	83.1	2.13E-06	3.14E-07	1.61E-10	0.212	0.00875	2.11E-04	3.23E-05	2.31E-08	1.53E-01	3.053571429
SSK141283	957.6816	54.4	18.8	68.1	50.7	2.38E-06	5.78E-07	6.94E-11	0.247	0.00628	3.33E-04	8.71E-05	1.77E-08	2.61E-01	2.893617021
SSK141282	964.9968	51.29	14.4	81.8	77.6	2.78E-06	4.13E-07	2.53E-10	0.692	0.00659	3.78E-04	5.79E-05	4.47E-08	1.53E-01	3.561805556
SSK141281	969.5688	56.99	12.9	67.2	68.2	3.07E-06	5.09E-07	3.09E-10	0.631	0.00635	4.38E-04	7.52E-05	5.52E-08	1.72E-01	4.417829457
SSK141280	978.408	49.19	14.5	58.9	63.4	3.45E-06	5.77E-07	2.98E-10	0.403	0.00659	4.80E-04	8.28E-05	5.15E-08	1.73E-01	3.392413793
SSK141279	987.2472	50.06	11.3	45.9	78.8	4.22E-06	5.92E-07	2.65E-10	0.47	0.00631	6.23E-04	8.89E-05	4.86E-08	1.43E-01	4.430088496
SSK141278	987.8568	46.51	14.5	58.6	122.3	7.00E-06	7.67E-07	2.99E-10	-0.356	0.00698	9.62E-04	1.05E-04	4.88E-08	1.10E-01	3.207586207
SSK141277	989.9904	48.56	13.6	52.7	109.7	6.09E-06	7.27E-07	2.55E-10	0.211	0.00691	8.40E-04	1.01E-04	4.29E-08	1.20E-01	3.570588235
SSK141276	991.5144	51.69	14.2	57.2	102.9	4.05E-06	5.35E-07	2.64E-10	0.561	0.00672	5.60E-04	7.50E-05	4.55E-08	1.34E-01	3.640140845
SSK141275	992.7336	49.47	15	62.4	73.8	3.23E-06	5.17E-07	3.20E-10	0.376	0.00702	4.19E-04	6.92E-05	5.15E-08	1.65E-01	3.298
SSK141274	993.648	46.2	13.8	48.8	107.6	7.46E-06	8.70E-07	2.57E-10	-0.147	0.00708	1.01E-03	1.18E-04	4.22E-08	1.17E-01	3.347826087
SSK141273	994.8672	53.88	16.5	61.8	120.3	6.17E-06	7.60E-07	3.37E-10	-0.048	0.00739	7.96E-04	9.86E-05	5.12E-08	1.24E-01	3.265454545
SSK141272	996.3912	46.83	13.9	55.9	109.7	6.56E-06	7.11E-07	3.09E-10	0.001	0.00659	9.52E-04	1.03E-04	5.32E-08	1.08E-01	3.369064748
SSK141271	1001.5728	39.11	10.9	52	67	5.75E-06	7.80E-07	8.30E-11	-0.109	0.00766	7.13E-04	9.78E-05	1.63E-08	1.37E-01	3.588073394
SSK141270	1003.4016	40.56	13.8	48.6	58.8	3.83E-06	6.49E-07	1.56E-10	0.095	0.00752	4.71E-04	8.22E-05	2.63E-08	1.74E-01	2.939130435
SSK141269	1005.84	44.29	13.6	50.6	96.6	8.78E-06	1.06E-06	2.17E-10	-0.149	0.00718	1.18E-03	1.43E-04	3.60E-08	1.21E-01	3.256617647

File: D2Sresistivity.txt
DEPT .m 	Cali in	DT us/ft	GR  gAPI	LLD ohmm	LLS ohmm	MSFL ohmm	NPHI m3/m3	RHOB g/cm3	SP mV	MD M	TVDSS	UTME	UTMN
1219.17	-999.25	-999.25	-999.25	-999.25	-999.25	-999.25	-999.25	-999.25	-999.25	1219.2	1208	399495	85650.1
1225.47	-999.25	-999.25	-999.25	-999.25	-999.25	-999.25	-999.25	-999.25	-999.25	1225.5	1214.22	399496	85649.5
1231.77	-999.25	-999.25	-999.25	-999.25	-999.25	-999.25	-999.25	-999.25	-999.25	1231.81	1220.44	399497.5	85648.8
1238.07	-999.25	-999.25	-999.25	-999.25	-999.25	-999.25	-999.25	-999.25	-999.25	1238.11	1226.67	399499	85648.2
1244.37	-999.25	-999.25	-999.25	-999.25	-999.25	-999.25	-999.25	-999.25	-999.25	1244.41	1232.89	399500	85647.5
1250.67	-999.25	-999.25	-999.25	-999.25	-999.25	-999.25	-999.25	-999.25	-999.25	1250.72	1239.1	399498	85646.5
1256.97	-999.25	-999.25	-999.25	-999.25	-999.25	-999.25	-999.25	-999.25	-999.25	1256.99	1245.25	399500	85645.6
1263.27	-999.25	-999.25	-999.25	-999.25	-999.25	-999.25	-999.25	-999.25	-999.25	1263.26	1251.4	399501	85644.6
1269.57	-999.25	-999.25	-999.25	-999.25	-999.25	-999.25	-999.25	-999.25	-999.25	1269.53	1257.55	399502	85643.6
1275.87	-999.25	-999.25	-999.25	-999.25	-999.25	-999.25	-999.25	-999.25	-999.25	1275.81	1263.7	399504	85642.7
1282.17	-999.25	-999.25	-999.25	-999.25	-999.25	-999.25	-999.25	-999.25	-999.25	1282.09	1269.86	399503	85642.3
1288.47	-999.25	-999.25	-999.25	-999.25	-999.25	-999.25	-999.25	-999.25	-999.25	1288.4	1276.05	399504	85641.3
1294.77	-999.25	-999.25	-999.25	-999.25	-999.25	-999.25	-999.25	-999.25	-999.25	1294.72	1282.24	399505	85640.375
1301.07	-999.25	-999.25	-999.25	-999.25	-999.25	-999.25	-999.25	-999.25	-999.25	1301.03	1288.43	399507	85639.4
1307.37	-999.25	-999.25	-999.25	-999.25	-999.25	-999.25	-999.25	-999.25	-999.25	1307.34	1294.62	399507.875	85638.4
1313.67	-999.25	-999.25	-999.25	-999.25	-999.25	-999.25	-999.25	-999.25	-999.25	1313.66	1300.78	399507	85636.8
1319.97	-999.25	-999.25	-999.25	-999.25	-999.25	-999.25	-999.25	-999.25	-999.25	1319.96	1306.92	399508	85635.5
1326.27	-999.25	-999.25	-999.25	-999.25	-999.25	-999.25	-999.25	-999.25	-999.25	1326.27	1313.07	399509	85634.2
1332.57	-999.25	-999.25	-999.25	-999.25	-999.25	-999.25	-999.25	-999.25	-999.25	1332.57	1319.21	399511	85632.9
1338.87	-999.25	-999.25	-999.25	-999.25	-999.25	-999.25	-999.25	-999.25	-999.25	1338.87	1325.35	399511.875	85631.6
1345.17	-999.25	-999.25	-999.25	-999.25	-999.25	-999.25	-999.25	-999.25	-999.25	1345.18	1331.45	399511	85630.6
1351.47	-999.25	-999.25	-999.25	-999.25	-999.25	-999.25	-999.25	-999.25	-999.25	1351.48	1337.54	399512	85629.3
1357.77	-999.25	-999.25	-999.25	-999.25	-999.25	-999.25	-999.25	-999.25	-999.25	1357.79	1343.64	399513	85628
1364.07	-999.25	-999.25	-999.25	-999.25	-999.25	-999.25	-999.25	-999.25	-999.25	1364.09	1349.74	399515	85626.7
1370.37	-999.25	-999.25	-999.25	-999.25	-999.25	-999.25	-999.25	-999.25	-999.25	1370.39	1355.83	399516	85625.4
1376.67	-999.25	-999.25	-999.25	-999.25	-999.25	-999.25	-999.25	-999.25	-999.25	1376.7	1361.9	399515	85623.6
1382.97	-999.25	-999.25	-999.25	-999.25	-999.25	-999.25	-999.25	-999.25	-999.25	1383	1367.96	399516	85622
1389.27	-999.25	-999.25	-999.25	-999.25	-999.25	-999.25	-999.25	-999.25	-999.25	1389.31	1374.01	399517.625	85620.4
1395.57	-999.25	-999.25	-999.25	-999.25	-999.25	-999.25	-999.25	-999.25	-999.25	1395.61	1380.07	399519	85618.75
1401.87	-999.25	-999.25	-999.25	-999.25	-999.25	-999.25	-999.25	-999.25	-999.25	1401.91	1386.12	399520	85617.1
1408.17	-999.25	-999.25	-999.25	-999.25	-999.25	-999.25	-999.25	-999.25	-999.25	1408.19	1392.06	399520	85616.2
1414.47	-999.25	-999.25	-999.25	-999.25	-999.25	-999.25	-999.25	-999.25	-999.25	1414.47	1397.98	399521	85614.6
1420.77	-999.25	-999.25	-999.25	-999.25	-999.25	-999.25	-999.25	-999.25	-999.25	1420.74	1403.9	399522	85613
1427.07	-999.25	-999.25	-999.25	-999.25	-999.25	-999.25	-999.25	-999.25	-999.25	1427.01	1409.83	399523	85611.4
1433.37	-999.25	-999.25	-999.25	-999.25	-999.25	-999.25	-999.25	-999.25	-999.25	1433.29	1415.73	399524.25	85609.6
1439.67	-999.25	-999.25	-999.25	-999.25	-999.25	-999.25	-999.25	-999.25	-999.25	1439.6	1421.48	399526	85607.6
1445.97	-999.25	-999.25	-999.25	-999.25	-999.25	-999.25	-999.25	-999.25	-999.25	1445.91	1427.23	399527	85605.7
1452.27	-999.25	-999.25	-999.25	-999.25	-999.25	-999.25	-999.25	-999.25	-999.25	1452.23	1432.99	399528.125	85603.8
1458.57	-999.25	-999.25	-999.25	-999.25	-999.25	-999.25	-999.25	-999.25	-999.25	1458.54	1438.74	399529	85601.8
1464.87	-999.25	-999.25	-999.25	-999.25	-999.25	-999.25	-999.25	-999.25	-999.25	1464.86	1444.42	399533.25	85599.5
1471.17	-999.25	-999.25	-999.25	-999.25	-999.25	-999.25	-999.25	-999.25	-999.25	1471.16	1449.92	399536	85597.3
1477.47	-999.25	-999.25	-999.25	-999.25	-999.25	-999.25	-999.25	-999.25	-999.25	1477.47	1455.42	399538	85595
1483.77	-999.25	-999.25	-999.25	-999.25	-999.25	-999.25	-999.25	-999.25	-999.25	1483.77	1460.93	399541	85592.75
1490.07	-999.25	-999.25	-999.25	-999.25	-999.25	-999.25	-999.25	-999.25	-999.25	1490.07	1466.43	399544	85590.5
1496.37	-999.25	-999.25	-999.25	-999.25	-999.25	-999.25	-999.25	-999.25	-999.25	1496.38	1471.9	399543	85587.9
1502.67	-999.25	-999.25	-999.25	-999.25	-999.25	-999.25	-999.25	-999.25	-999.25	1502.68	1477.38	399546	85585.6
1508.97	-999.25	-999.25	-999.25	-999.25	-999.25	-999.25	-999.25	-999.25	-999.25	1508.99	1482.85	399548	85583.3
1515.27	-999.25	-999.25	-999.25	-999.25	-999.25	-999.25	-999.25	-999.25	-999.25	1515.29	1488.33	399551	85581.1
1521.57	-999.25	-999.25	-999.25	-999.25	-999.25	-999.25	-999.25	-999.25	-999.25	1521.59	1493.8	399553.625	85578.8
1527.87	-999.25	-999.25	-999.25	-999.25	-999.25	-999.25	-999.25	-999.25	-999.25	1527.9	1499.31	399554	85576.3
1534.17	-999.25	-999.25	-999.25	-999.25	-999.25	-999.25	-999.25	-999.25	-999.25	1534.2	1504.81	399556	85574
1540.47	-999.25	-999.25	-999.25	-999.25	-999.25	-999.25	-999.25	-999.25	-999.25	1540.51	1510.31	399558.875	85571.8
1546.77	-999.25	-999.25	-999.25	-999.25	-999.25	-999.25	-999.25	-999.25	-999.25	1546.81	1515.81	399561	85569.5
1553.07	-999.25	-999.25	-999.25	-999.25	-999.25	-999.25	-999.25	-999.25	-999.25	1553.11	1521.31	399564	85567.3
1559.37	10.0813	76.1247	167.01	2.77524	2.80845	2.50973	0.206331	2.55598	-33.02	1559.4	1526.8	399563	85564.8
1565.67	10.1857	79.8033	178.992	2.56132	2.62939	2.48264	0.26168	2.539	-35.6	1565.67	1532.31	399564	85562.6
1571.97	10.2976	76.8928	170.804	2.94328	3.04486	2.80073	0.199868	2.53928	-33.6612	1571.94	1537.82	399566	85560.3
1578.27	10.3697	81.3694	234.662	3.12807	3.09709	2.87657	0.191015	2.54336	-32.2888	1578.22	1543.33	399567	85558.1
1584.57	10.4233	74.6448	167.46	3.036	3.0946	2.78291	0.155335	2.57244	-35.1557	1584.49	1548.85	399568	85555.8
1590.87	10.1986	77.0511	186.62	2.94389	3.08752	3.94337	0.14342	2.50477	-36.2756	1590.8	1554.41	399572	85553.125
1597.17	9.19027	66.824	162.845	4.90048	4.76637	3.51583	0.121405	2.56401	-36.5904	1597.11	1559.98	399574	85550.9
1603.47	8.87028	73.669	143.167	11.8376	9.56056	1.40702	0.177199	2.5152	-37.6948	1603.43	1565.55	399574.875	85548.6
1609.77	8.64039	87.0414	195.717	3.95811	2.94349	2.41163	0.240874	2.31783	-39.1496	1609.74	1571.11	399576	85546.3
1616.07	8.54312	76.0417	167.601	3.78195	2.53204	1.58476	0.203641	2.48907	-40.376	1616.06	1576.68	399580	85543.5
1622.37	8.477	82.5772	185.258	4.64386	4.15313	1.94522	0.188274	2.35493	-40.179	1622.36	1582.18	399582	85540.9
1628.67	8.44156	87.5043	161.769	4.74531	3.68285	2.70781	0.222574	2.29251	-40.6886	1628.67	1587.68	399583	85538.4
1634.97	8.4666	88.2418	154.05	3.94284	3.03017	1.6339	0.244279	2.22612	-39.2995	1634.97	1593.18	399584	85535.8
1641.27	8.461	85.2396	169.534	3.67256	3.14361	1.49274	0.220295	2.3269	-40.942	1641.27	1598.68	399585	85533.2
1647.57	8.461	91.031	131.684	3.1255	2.71682	1.01215	0.231803	2.30696	-38.1471	1647.58	1604.17	399589	85531.3
1653.87	8.44151	91.9083	169.114	2.85593	2.60421	0.723157	0.246928	2.23595	-41.1154	1653.88	1609.69	399590.625	85528.7
1660.17	8.445	88.4526	183.377	1.27364	1.12599	0.613039	0.211391	2.29424	-40.6511	1660.19	1615.21	399592	85526.1
1666.47	8.477	76.007	132.195	0.706994	0.597228	0.567119	0.240665	2.30383	-36.834	1666.49	1620.73	399593	85523.6
1672.77	8.492	82.0228	130.596	0.778474	0.597106	0.579696	0.215496	2.32451	-41.5413	1672.79	1626.25	399594.5	85521
1679.07	8.477	80.9656	122.575	0.62002	0.510854	0.462998	0.224939	2.29972	-46.0095	1679.1	1631.77	399598.375	85519.2
1685.37	8.61078	77.3033	148.655	0.954653	1.00689	0.752999	0.193803	2.39388	-40.9074	1685.4	1637.32	399600	85517
1691.67	8.60568	83.4299	141.935	0.637195	0.504746	0.39896	0.239219	2.2849	-45.222	1691.71	1642.86	399601	85514.7
1697.97	8.6346	83.6936	143.117	0.671501	0.591707	0.465287	0.217119	2.30446	-47.3717	1698.01	1648.4	399602.25	85512.5
1704.27	8.70415	66.4106	148.987	2.28977	1.83822	2.00893	0.149193	2.54477	-48.0511	1704.31	1653.94	399604	85510.2
1710.57	8.76265	67.99	105.884	1.44126	1.41968	1.06096	0.114244	2.47713	-48.8273	1710.6	1659.47	399607	85507.3
1716.87	8.71255	76.2056	132.882	1.36433	1.35166	1.09994	0.161561	2.41056	-53.1121	1716.88	1665	399608.75	85504.7
1723.17	8.70505	82.5686	139.028	0.79108	0.66582	0.569138	0.216187	2.304	-47.3622	1723.15	1670.53	399610	85502.1
1729.47	8.67973	79.4065	105.426	0.880554	0.831193	0.540565	0.20522	2.37359	-46.8748	1729.42	1676.06	399611	85499.5
1735.77	8.70178	76.0078	125.081	1.07701	0.968718	0.975381	0.151852	2.40766	-48.9915	1735.69	1681.59	399612.625	85496.9
1742.07	8.69337	81.8721	107.873	0.654419	0.672778	0.359554	0.213505	2.31839	-42.0259	1742	1687.17	399616	85495.1
1748.37	8.64519	81.4694	104.415	0.520167	0.51478	0.374324	0.196868	2.32313	-47.9621	1748.31	1692.75	399617	85492.5
1754.67	9.03048	72.4121	129.041	2.44748	2.43114	2.3833	0.127043	2.50768	-49.6483	1754.62	1698.34	399618.625	85490
1760.97	8.56493	80.5325	73.8774	0.698617	0.645005	0.418628	0.169161	2.34234	-53.6169	1760.94	1703.93	399620	85487.4
1767.27	8.71582	73.2529	109.239	1.83862	1.73274	1.00225	0.130167	2.49244	-55.5706	1767.25	1709.51	399621	85484.8
1773.57	8.58088	75.8739	95.1413	0.994121	0.914629	0.488313	0.170014	2.38017	-69.9597	-999.25	-999.25	-999.25	-999.25
1775.87	8.55585	74.9174	112.102	1.24587	1.27058	1.07216	0.165218	2.40004	-68.8687	-999.25	-999.25	-999.25	-999.25